H	CreationDate	8/03/09
H	Extractor	Paul Draghicescu
H	ExtractorVersion	1
H	ExtractorOptions	1
H   This file replaces the original xlink.ms2, which is known to have
H   problems. Specifically, the masses on the Z lines should agree with
H   those in the original .dta files, and do not.  This file has been
H   regenerated from the .dta files with an updated and corrected
H   Python script (see C:\Noble_lab\proj\crosslink_p_value\results
H       \test_spectra\dta2ms2.py).
S	1267	1267	463.26135235
Z	4	1850.02358
115.21188 566.7
120.95974 574.9
121.80058 1942.2
121.81269 585.7
122.00063 547.5
128.58249 672.9
130.22632 551.3
132.39131 595.8
145.88191 543.0
162.67126 673.8
175.09035 835.1
183.14929 660.9
186.12376 844.7
195.08310 523.3
197.16414 1011.4
197.70573 664.3
198.29053 542.1
198.91589 683.8
199.19194 1104.2
199.20410 936.6
199.28914 2791.3
199.30020 1207.2
199.31743 868.8
199.41565 703.9
201.08641 3282.2
203.08472 693.6
223.63445 880.1
227.06691 1099.7
228.17023 3132.0
242.67815 534.7
246.18095 16978.0
247.18488 3104.2
249.15947 33903.7
250.16269 5099.5
255.07423 583.8
267.11798 831.2
268.24228 669.3
273.16833 1405.4
275.17352 892.2
277.15445 13388.9
278.15811 1807.4
278.69519 1150.1
280.63876 2523.7
282.29593 549.2
292.19968 1543.2
292.69147 3665.1
297.17255 670.3
304.64059 791.2
308.90814 579.9
312.51978 554.6
315.16965 722.8
316.11215 1207.3
319.22293 1212.8
323.24365 2754.7
327.73730 1016.2
329.14725 945.1
332.12717 1798.1
335.18109 912.5
338.15201 1009.7
341.25436 11624.7
341.39023 693.4
341.73273 1651.9
342.25775 2236.1
348.19052 1320.9
349.71326 6379.4
350.14536 687.9
350.21552 2195.2
350.27847 1057.2
357.21292 9769.3
358.21667 1759.1
358.28125 2516.0
360.19232 589.8
363.17325 5795.1
364.17801 851.0
366.14700 1650.1
370.89813 1386.0
375.22336 14594.6
376.22723 2300.6
376.57568 1838.3
376.73636 8205.9
377.23886 2975.0
378.14026 3667.4
381.38062 662.2
385.24939 5926.4
385.75058 2280.1
390.88275 578.3
391.88202 2836.0
392.21613 1899.8
392.54935 744.4
394.14078 646.6
395.30124 886.6
397.88571 6685.3
398.21997 4865.5
398.55502 1319.4
399.24664 6002.2
399.74960 2100.1
402.04813 561.3
403.19736 788.7
408.19498 9902.8
409.19830 1952.8
409.24243 7528.6
409.57614 3989.8
409.89218 560.5
409.91400 1268.6
414.23001 532.2
414.91849 4503.8
415.25269 3181.5
417.47763 1007.3
420.89505 907.6
421.22775 1270.2
422.25577 1213.8
426.56793 1964.9
426.90469 1145.9
429.89618 4494.0
430.22711 2726.9
430.56525 1105.3
432.25116 1215.3
434.21188 1547.9
435.89972 15112.8
436.23434 9297.3
436.56860 3053.3
436.90115 988.3
439.90128 21414.0
439.99619 811.2
440.23492 14475.3
440.56937 3707.7
440.76166 1024.8
440.90396 1334.2
442.57266 675.2
442.74551 858.7
444.49896 2639.2
444.75012 4282.7
445.00128 2584.4
445.26746 1791.0
445.44669 799.0
445.76831 1236.5
446.21750 1985.7
446.26004 357139.2
446.73065 631.2
446.75204 1773.7
447.02155 591.8
447.08136 871.7
447.15356 1322.2
447.26306 82623.2
448.26611 11924.5
459.87347 647.9
468.92227 14415.4
469.25659 13927.6
469.59039 10685.0
469.92447 6141.6
470.25735 1783.5
470.78192 4637.3
471.28308 1570.2
471.78406 781.7
471.92487 835.0
475.21918 839.3
476.77377 1240.2
478.26779 719.6
479.23123 14706.7
480.23566 4374.3
480.92154 1109.5
481.25482 1300.7
481.59259 838.7
483.22147 1089.8
485.29044 2299.2
486.92569 1270.9
487.26044 1629.6
492.60098 5206.7
492.93600 5000.8
493.26901 1424.2
493.59659 769.8
493.93787 920.6
498.25107 1112.2
498.58072 1033.6
499.28510 3580.2
499.78842 1829.7
503.92444 4896.4
504.25748 4533.2
504.59302 2164.4
506.27032 1257.8
506.75790 2203.8
507.26245 847.4
510.24490 1271.1
513.60938 2048.0
513.94165 934.5
515.27301 3557.7
515.77362 2191.8
518.76001 1663.1
519.23212 1060.3
519.28796 1314.3
519.61749 4013.9
519.94843 2991.9
520.28375 2095.0
525.29034 7787.0
525.62524 7054.8
525.95966 4904.5
529.94098 1503.7
532.27545 1146.9
532.54547 2125.0
533.29163 2232.0
533.78979 1040.5
535.61475 1050.0
535.94910 1914.3
536.28180 874.1
541.80444 3070.7
542.29541 6796.8
542.79883 4114.0
543.29840 1444.2
545.32782 7386.3
546.33063 1593.1
550.80890 17265.9
551.31042 9843.8
551.81134 3106.0
554.36835 729.9
555.80090 2966.5
555.84637 6177.1
556.29956 1974.9
556.34851 4464.0
556.79749 927.0
556.84821 2229.6
560.83478 824.2
564.35956 4561.9
564.80621 23165.8
564.86029 2103.7
565.30756 12273.0
565.80823 6192.4
566.30908 1978.3
569.84802 742.0
571.39319 749.7
573.96985 908.1
574.31226 731.1
577.81342 1066.5
578.31152 1043.2
579.64514 1085.8
580.28241 2378.7
581.28119 1150.5
583.39227 2320.0
584.37280 3736.1
585.37189 1173.1
587.31909 7302.7
587.82092 3698.7
588.32062 2015.0
589.98712 637.5
590.26483 1797.2
591.81256 1067.2
596.32452 13145.3
596.82642 7804.3
597.32941 2777.9
600.82007 786.3
604.86292 849.9
608.27301 15045.9
608.79639 710.9
609.27356 4664.2
613.35944 28066.7
613.86102 21292.9
614.36377 6522.2
614.86664 1253.2
617.30957 3519.4
617.81073 2995.4
618.31415 1401.9
618.81488 715.4
621.87256 19555.0
622.37415 14311.2
622.87756 4596.8
623.36078 1661.2
625.31671 662.5
630.83331 1255.9
631.33502 1605.3
632.34045 2912.5
635.82697 3098.7
636.32855 1607.3
637.32996 1608.0
639.35083 845.0
639.85156 1006.1
642.34198 1817.4
644.33978 8272.4
644.83344 22643.5
645.33466 16338.6
645.83514 6429.2
646.33618 6187.3
646.83746 3393.1
647.34509 905.0
653.34564 92622.6
653.84662 66563.1
654.34753 29604.7
654.47058 861.9
654.84863 10273.8
655.35065 2034.0
659.37097 12565.0
660.37671 3268.4
661.38177 865.6
665.34418 867.5
668.87561 4799.8
669.37488 3260.3
669.88055 1875.2
674.85364 831.1
676.62146 1250.2
677.39325 1243.7
677.87952 2253.2
678.38397 1254.0
678.89081 819.6
682.45929 1928.6
683.47076 662.9
686.39514 1878.0
686.89612 1195.7
687.41431 917.6
693.87372 716.7
694.86780 688.8
695.38385 870.4
698.41693 5373.7
699.42255 1025.7
702.88007 9144.5
703.38123 6915.0
703.88177 2082.2
704.37653 1319.3
705.28931 1399.8
721.91327 1381.5
722.91815 1088.2
723.29999 7871.0
724.30371 2846.2
725.30255 873.0
752.47009 1387.7
769.48718 969.4
795.65912 1022.7
797.48511 5141.1
798.49530 1435.9
804.59180 592.7
809.45490 1001.0
827.46173 962.0
898.48962 1507.2
899.49689 1007.4
908.50494 961.5
926.53027 1733.7
927.53314 866.6
948.08545 605.7
965.43262 1204.6
966.43683 750.0
997.55725 1291.6
1019.71680 1113.5
1029.54089 2127.1
1030.53577 892.9
1079.27063 656.8
1079.54028 786.3
1112.70691 696.7
1198.21838 3504.4
1211.73779 688.5
1285.32495 665.9
1326.51953 626.0
1387.03027 572.3
1514.85596 622.5
1808.16394 736.9
S	1370	1370	623.84728985
Z	4	2492.36733
160.30809 543.2
166.59825 554.9
180.22842 611.2
185.10861 653.1
188.20409 602.4
188.22562 499.9
188.24739 750.1
188.27838 2017.1
188.28178 2008.3
188.29688 2150.0
188.31361 1349.2
188.34686 544.9
198.89833 829.7
199.18272 1243.2
199.21014 750.6
199.24263 724.8
199.26141 941.9
199.27080 1327.8
199.28020 2434.9
199.30812 721.5
199.37756 985.7
199.64481 730.0
200.56033 576.2
201.92784 635.7
230.02011 673.1
238.72447 770.4
246.18066 1992.3
254.79402 606.1
264.10242 655.8
273.16525 573.4
292.64948 689.8
347.28635 623.3
357.14850 589.7
382.13995 698.9
428.72827 9113.6
429.23035 3533.3
429.73111 818.1
446.25919 4701.1
447.26440 1202.1
501.71539 757.2
526.05920 903.6
529.16522 620.7
532.54510 2074.5
534.72253 651.8
538.86798 618.2
545.33411 1184.4
546.32452 658.0
546.73553 856.7
562.27039 853.1
570.80292 2760.7
571.05463 2766.0
571.30432 1205.4
588.69318 636.6
590.91486 677.5
602.82648 667.5
606.25781 584.1
659.36975 4035.6
660.37244 1028.3
676.62537 1014.3
680.97247 748.6
683.03485 1959.1
683.37103 1715.5
683.70642 1627.9
699.98328 933.2
702.37292 1328.6
712.87744 761.6
713.38416 1079.3
718.98834 3098.1
719.32184 1795.1
719.65656 2156.8
737.31696 557.8
742.32813 974.3
742.66754 4455.4
743.00195 2566.0
743.33447 813.7
744.73657 831.2
745.40991 851.4
749.72852 2227.0
750.06567 1690.7
750.39740 1289.7
759.39819 1724.8
760.73535 8969.9
761.06940 12661.0
761.40399 6902.1
761.73816 1663.9
762.08215 1056.7
785.17438 599.4
795.46661 604.1
802.42316 1072.3
802.75281 753.9
811.41510 3216.2
811.91736 2540.4
812.42291 1005.4
812.91840 679.3
818.95251 5336.6
819.45557 2958.4
819.95313 2389.7
856.45081 3605.1
857.44031 1271.8
868.44592 676.8
882.45673 987.3
917.97192 2387.7
918.47858 1606.6
1018.52069 1147.1
1039.07690 708.8
1040.59180 594.2
1057.22876 832.5
1111.98706 628.0
1198.22290 3063.0
1221.54187 648.9
1359.07898 613.4
1525.45105 750.5
1608.40503 620.6
1663.22095 664.2
1666.96497 796.4
1833.44373 677.6
1875.31323 622.5
1878.88257 1408.4
1879.13464 1529.7
1879.49219 19545.7
1879.84729 1979.1
1880.11218 869.0
1880.72693 558.6
1906.84460 6868.0
1930.60144 1141.4
S	1605	1605	757.351989174
Z	5	3782.73084
197.12646 632.7
197.73378 547.1
198.79048 758.7
198.88942 952.6
199.17439 684.4
199.19200 983.2
199.20270 582.8
199.23648 675.0
199.25903 1291.5
199.27295 1834.8
199.28828 1297.0
199.34702 682.1
199.38702 762.7
200.95033 580.2
207.50690 639.5
209.13774 563.7
210.27579 560.6
216.43669 562.1
230.20341 529.9
234.45479 666.1
237.47345 784.9
241.90660 599.8
246.15590 9999.4
247.15970 948.9
251.10225 719.0
254.74483 633.5
279.18918 733.0
311.13467 1032.6
348.11826 922.7
350.27817 847.7
366.12735 1138.5
396.72156 3446.2
397.22354 1364.5
413.99167 567.0
421.70892 2489.8
422.20721 747.8
428.72995 1005.7
441.16922 763.2
459.28302 1062.1
462.23032 806.1
479.22351 608.1
479.72290 665.2
482.65695 668.3
483.16754 555.8
498.19620 2186.5
501.19681 1073.6
502.19397 790.9
516.31213 747.2
517.81519 799.4
529.19708 990.1
532.47614 2159.9
532.59808 6144.1
532.93317 6460.3
533.26825 3287.3
533.60138 690.9
534.74060 1762.4
535.23651 1398.3
536.22571 641.1
538.22626 1664.5
540.20251 2266.5
543.74304 3454.2
544.24530 2559.4
548.31451 2374.9
549.15558 700.6
549.25958 2927.3
549.31396 950.5
550.26147 859.4
575.61847 636.4
575.95691 1011.3
597.26318 1504.2
603.94006 794.4
611.24451 874.9
612.29425 1689.8
612.62866 1928.4
612.96429 1147.9
615.82703 999.1
616.33417 1265.4
617.27594 3617.0
617.77875 2218.6
618.27924 1142.8
635.97491 3234.1
636.30933 2805.5
636.64209 2300.2
636.97278 968.4
638.99072 684.0
649.64349 789.2
655.31165 1600.6
661.28033 759.8
665.78522 956.0
666.28143 1202.8
673.34875 2056.6
673.84497 1289.3
674.29858 12042.5
674.79962 6928.0
675.30084 2147.4
676.26532 1080.2
676.63348 1146.6
686.32135 1343.7
694.31268 3656.6
695.31238 703.9
695.38318 1516.0
700.66394 715.8
702.38342 766.8
706.12573 952.1
706.31720 2239.3
706.51959 1022.1
712.29205 3326.3
712.66449 2221.5
713.00159 1160.4
713.29620 907.2
716.34717 1390.3
716.86322 1515.9
717.35687 1843.0
717.86694 1349.7
723.09894 1535.3
723.34924 1962.2
723.41791 768.9
723.59827 1958.1
724.11035 758.2
729.81305 2768.5
730.30896 1296.6
730.81573 870.6
736.01062 3525.6
736.34491 2678.1
736.60974 1410.8
736.68121 2020.8
737.23962 598.0
737.59033 987.2
737.80505 641.4
737.86127 780.1
738.81860 5969.7
739.31903 3867.0
739.81128 1600.9
743.34167 3841.5
744.35138 1071.7
781.35327 2506.6
782.33881 884.7
783.70868 642.2
785.35815 808.0
789.34241 5801.1
789.61279 925.6
789.83795 2753.7
790.33826 1621.5
792.43500 21266.9
793.43683 8672.5
794.44159 2100.3
795.36023 811.8
798.39795 6109.3
798.89679 5850.1
799.39832 3636.8
807.37378 4339.8
807.62964 2449.2
807.88062 1976.0
808.13049 1282.1
809.88074 872.4
810.13013 1273.0
812.11841 735.2
812.70880 928.2
813.03772 962.3
813.38000 855.3
815.85150 777.7
816.36694 699.3
823.32043 1695.6
824.86121 4188.7
825.36261 2702.6
826.36902 818.1
831.40448 2258.3
831.89874 2280.7
832.40485 1721.1
834.15955 677.1
836.12811 1290.2
836.38239 1217.9
836.63934 1235.3
839.04810 1268.1
841.32886 3180.4
842.41150 3287.7
843.40802 1471.0
844.71686 1472.6
845.05481 1275.8
845.37457 834.4
845.72583 1009.2
850.63959 2296.6
850.71887 921.8
850.89215 1657.9
851.05194 1365.9
851.14276 2778.9
851.39124 3393.7
851.88995 843.8
852.37646 660.8
854.41272 1568.2
855.64301 1260.9
856.45081 11216.8
857.45313 1268.0
864.39191 2475.7
864.64545 2877.5
864.89563 6263.0
865.14697 5014.0
865.39996 2315.6
870.37701 1523.6
872.12891 2232.2
872.38110 1466.1
875.14752 1392.7
875.39539 1949.4
875.64764 3596.8
875.89880 1354.6
876.14056 980.8
876.38397 2803.2
876.63379 2457.1
876.71979 1218.7
876.88696 2406.8
877.13062 1428.2
878.14313 907.9
878.40210 1654.7
878.89178 1726.6
879.14056 734.1
879.39966 5605.4
879.65057 6879.3
879.90271 8579.3
880.15302 7045.8
880.40796 4844.3
880.64618 1217.1
880.88654 3596.8
881.14093 3529.9
881.38037 1789.1
881.88776 807.1
882.14990 2254.8
882.40863 4884.5
882.65430 9907.2
882.90643 5498.9
883.15497 4521.5
883.39557 860.3
884.15533 1707.8
884.40814 2386.9
884.66138 1296.3
885.12872 1304.3
885.38324 1647.9
885.64160 3825.0
885.88904 2226.2
893.73810 1455.6
894.07135 1818.2
894.41632 1510.6
894.74347 937.6
897.40778 1129.5
899.75562 977.6
900.08105 1694.6
900.41107 1895.5
901.40930 3832.1
901.65851 4483.8
901.91595 2026.3
902.16516 1798.3
904.15295 1248.7
905.90973 904.3
906.40723 1278.8
906.73138 699.8
909.43701 1289.0
909.93134 1168.6
910.88525 3073.1
911.38251 3087.5
911.88391 2181.1
917.93994 3871.2
918.44147 2616.4
918.94110 1579.9
919.45514 1183.7
930.38361 998.9
930.89532 1851.6
931.38849 1073.4
932.37714 973.5
937.09082 887.0
937.42206 1426.0
938.39307 813.8
939.39612 7362.1
939.89789 5444.8
940.40155 4702.7
940.90094 1605.3
943.09967 1070.8
953.45575 908.9
953.95807 1020.6
954.46515 909.2
957.43549 1462.9
958.43219 969.0
966.40894 1877.4
970.08899 1033.4
970.77051 998.0
974.91412 7428.0
975.41748 7007.2
975.91998 3220.4
976.10266 1061.1
976.42273 1663.9
976.91699 836.7
978.96460 809.5
981.46588 4635.8
981.76715 1466.7
982.09802 1038.9
982.46838 1316.3
988.10559 1197.8
988.38983 1989.0
989.10791 872.8
989.40167 870.0
994.45264 933.8
998.09698 1846.9
998.41516 1066.5
1030.91711 838.3
1052.46204 1385.0
1058.81250 719.0
1067.99097 1262.0
1068.49170 1416.6
1070.45752 943.7
1070.80188 1443.7
1071.14368 1292.3
1071.81470 816.9
1083.51660 827.6
1085.13757 1128.0
1086.47131 1607.8
1090.47827 888.8
1090.81799 2871.6
1091.15808 1886.4
1091.48572 1303.9
1094.45764 7654.4
1094.82471 1621.2
1094.95898 8999.8
1095.15259 1529.6
1095.46252 6100.4
1095.96570 1768.1
1102.44177 2869.4
1103.49878 2268.4
1104.01648 2146.9
1104.52539 1341.5
1120.15601 787.8
1120.50427 860.2
1127.53284 1981.8
1155.04700 958.7
1155.53064 1050.6
1198.06616 3319.8
1219.06238 1688.2
1231.47888 928.9
1256.56580 2367.8
1267.59644 957.4
1316.94067 676.3
1332.53650 1413.4
1681.15405 694.4
1683.35425 806.9
1777.27246 793.2
1878.86487 1150.2
1879.54260 18562.0
1880.07617 944.3
1880.25891 1214.0
1880.95508 865.6
1882.55652 606.9
1907.04236 7334.3
1907.36060 1428.8
1930.59631 1437.5
S	1615	1615	757.341431174
Z	5	3782.67805
198.88376 1182.7
199.24969 830.0
199.26167 1294.8
199.27209 1948.5
199.29222 703.5
199.29987 703.4
199.37073 775.1
215.35733 583.3
218.64275 544.4
224.10069 553.5
233.57210 838.6
243.97629 553.9
246.15588 3971.5
270.59460 641.8
272.15479 675.4
279.16916 602.9
304.46902 633.8
311.13437 1224.2
314.80096 564.7
317.52872 563.2
358.35645 609.6
386.97336 640.1
401.72629 611.4
416.96481 673.2
421.70871 1818.4
427.53882 953.5
458.84558 632.2
459.94153 635.7
479.21753 1029.1
479.72272 674.0
482.65793 616.2
484.39072 650.3
498.19382 754.0
505.80014 705.6
532.53302 1102.0
534.73804 1083.9
540.20068 2139.8
543.74200 4037.5
544.24628 2453.9
546.72003 599.3
547.73425 645.4
549.26025 1071.6
611.24188 1675.4
615.74750 618.4
617.27771 2782.2
617.78040 1755.8
638.87042 706.7
664.41028 821.1
665.77942 1207.7
674.29840 6798.9
674.79828 5855.0
675.30139 1325.3
676.25586 850.0
676.66077 1450.1
694.27509 1135.8
706.12183 1832.4
706.32184 1066.8
712.28473 1083.2
724.59906 619.0
731.14075 691.5
739.73114 939.5
741.34521 781.0
743.34045 1239.3
744.34821 1495.4
756.60303 683.6
789.36768 2712.5
789.61578 2451.3
789.86664 2324.1
790.11517 1911.9
792.43219 667.2
794.69611 838.2
799.34955 667.8
801.36890 918.4
803.36713 1203.7
807.12933 1472.8
807.37488 3764.6
807.62476 2599.0
807.87292 1560.9
810.12714 1862.9
810.38275 1608.0
814.63116 652.6
831.39978 1721.0
831.89709 1012.2
832.40790 869.7
836.38580 1815.9
839.37085 753.2
841.33020 1322.9
845.05292 707.0
846.13214 716.2
846.38879 781.1
850.64087 4291.7
850.89331 4623.8
851.14447 3167.4
851.39136 1656.9
853.91125 1136.7
854.41211 1289.3
854.91455 1219.9
864.38403 1804.0
864.64270 3604.1
864.89508 6333.7
865.14624 3775.2
865.39575 2294.2
871.13562 1156.2
872.38910 945.2
874.90051 1655.4
875.14899 2986.2
875.39441 3360.7
875.64758 2349.3
875.90167 1150.0
876.13708 1347.7
876.38544 1538.8
876.63226 2762.4
876.88971 1362.0
877.13000 895.1
878.39398 1265.8
879.39917 8439.5
879.65167 13773.3
879.90295 13689.1
880.15179 10961.4
880.40344 5978.6
880.65424 1261.8
880.90686 1179.6
881.99377 1118.7
882.15186 3774.1
882.40027 6583.0
882.65338 9692.0
882.90240 5156.4
883.15320 3795.0
883.40582 1103.8
883.90240 803.7
884.15808 1131.7
884.40533 1577.6
884.65955 892.8
885.13910 1771.8
885.39453 1491.8
885.63989 1678.4
885.89227 2195.8
886.14618 1127.2
886.91144 1320.0
888.39954 861.2
893.74115 2078.0
894.06848 2794.0
894.40765 1880.2
894.74023 1291.6
895.43658 849.6
896.90198 982.4
897.41669 1098.7
897.65582 1291.7
900.10742 647.1
901.16199 2571.1
901.40729 4628.8
901.65979 6410.3
901.90686 2997.5
902.15979 2216.5
902.41449 693.5
904.44019 891.4
904.92828 742.6
906.73975 955.6
949.77759 593.4
959.48969 601.1
970.43677 903.6
970.76611 1116.9
976.09424 816.2
987.77057 738.3
988.11829 1949.7
988.45282 2216.9
988.78351 1325.2
994.11060 1128.1
994.44458 961.8
994.77960 1056.4
1051.80200 938.8
1052.47058 885.0
1053.49121 882.3
1067.98730 615.1
1070.45532 724.1
1070.80334 2150.3
1071.13647 1838.8
1071.45764 857.9
1090.47253 1107.5
1090.81396 1923.3
1091.15442 2193.9
1091.48560 1307.6
1094.49182 1991.9
1094.81726 2412.4
1095.15332 1810.0
1095.43909 733.4
1119.82312 1664.6
1120.16089 1382.5
1148.46460 613.8
1198.18042 2954.2
1210.04443 1125.1
1492.19580 787.3
1525.43140 852.9
1544.16235 676.4
1777.52979 695.4
1873.52173 685.9
1877.59570 645.0
1878.72803 959.0
1879.27966 3867.9
1879.57813 19448.1
1880.12500 710.3
1880.41199 1102.8
1883.01746 893.6
1907.02869 7000.4
1914.90295 712.3
1918.63660 800.1
1930.54602 825.2
S	1653	1653	636.09332235
Z	4	2541.35146
173.75671 602.4
188.20831 600.3
188.26900 1633.3
188.28592 2027.1
188.30452 1665.0
188.32816 1105.6
194.03952 699.4
196.24338 531.7
197.29922 611.0
199.15408 617.8
199.20316 602.0
199.22160 663.9
199.24841 2015.1
199.27425 1734.8
199.30399 875.9
199.33913 882.9
199.37190 868.5
204.38072 613.4
232.11163 1451.1
236.76541 548.0
240.90660 533.1
249.09804 1140.8
254.16139 792.2
255.14532 1868.2
257.09457 1061.1
263.34378 688.5
270.08301 663.9
272.17148 7711.2
273.17554 1017.6
274.12195 2005.7
280.18600 639.3
280.88425 523.0
305.18152 1616.5
313.67545 1916.8
320.91412 624.3
322.68082 5013.9
323.18179 1682.2
332.16125 1043.2
339.16498 1628.1
341.14670 730.5
349.23355 1556.0
352.40295 581.8
353.76395 597.2
373.19086 1419.5
379.22223 8462.5
379.72385 3757.1
385.25531 20287.7
386.25851 4130.6
387.27316 2512.3
391.55945 751.7
392.21338 3598.5
397.18491 1142.9
400.64435 647.4
415.19751 1999.9
416.20166 689.4
428.72903 43369.9
429.23056 23124.0
429.73178 5142.1
430.23499 806.5
433.20560 813.3
454.21146 1108.1
457.79199 626.5
472.21921 1168.8
482.65680 667.1
484.32321 52614.1
485.32657 16693.0
486.32919 2992.5
488.25537 2134.9
488.75354 1056.9
490.22757 730.3
497.25894 1788.7
497.76215 1693.4
500.28253 660.7
507.77441 1759.9
508.24210 1805.1
508.27585 2008.3
508.77725 910.0
508.87357 588.9
516.31305 4685.0
517.31677 1595.3
521.77106 2419.5
522.27374 1972.4
522.77655 1067.1
526.60687 641.5
532.51404 1443.8
539.28143 1353.1
541.15411 616.3
552.77509 5005.1
553.27661 2078.1
553.34552 785.9
553.63019 2174.3
553.77612 1673.5
553.96820 1092.4
558.28571 673.2
561.77917 5132.1
562.28119 2873.4
562.63013 2079.1
562.78381 1288.0
562.96686 2014.3
563.30225 1600.2
569.97791 1043.7
579.30994 1073.5
580.26721 613.2
586.64246 944.3
589.20288 659.4
589.96149 1446.8
590.29138 1027.2
595.24554 634.9
595.32324 1492.4
595.57330 2527.3
595.63611 3236.9
595.82263 2484.3
595.96997 4542.2
596.07324 1493.3
596.30316 2537.2
600.30933 1233.7
613.63318 699.3
617.29468 2810.2
617.79956 3372.2
618.32458 9710.0
618.66016 908.6
618.98187 674.2
619.32678 3085.4
630.41510 1007.5
636.58063 699.5
644.35327 2345.2
644.68317 614.8
645.35907 1062.1
646.77399 610.5
648.00287 761.8
663.35223 1093.8
668.35449 597.7
671.26147 620.5
676.74701 706.4
681.33466 2142.9
681.66956 1336.6
682.00226 796.6
686.67426 4347.0
687.00867 6823.2
687.34229 4401.3
687.67517 3407.9
688.01221 1138.8
690.03094 926.3
695.36945 1121.7
695.84985 824.7
697.15289 705.3
702.37628 8314.7
703.37885 3221.2
710.69672 1193.8
713.36938 1136.5
715.36987 871.2
719.36426 1529.6
719.69586 4795.9
720.03082 5395.7
720.36383 3318.5
720.69843 3680.6
721.03888 951.2
747.36780 1144.6
748.36810 1049.6
751.87921 763.8
752.38110 1444.5
752.87720 813.6
753.86658 696.2
754.36719 1281.9
754.86334 1005.4
755.35718 907.5
756.40332 992.8
756.86157 804.3
757.43762 30750.9
757.72321 1627.5
758.06091 2934.9
758.43951 16089.9
758.72137 738.9
759.40210 13943.7
760.40192 6258.9
761.40204 2886.3
761.73706 1124.0
762.06415 802.5
762.88373 839.3
763.38599 852.4
776.41888 750.2
788.90704 3664.1
789.40875 3392.0
789.91357 2174.1
790.40692 1546.2
793.42810 1964.4
793.75885 3509.7
794.09406 2374.9
794.41418 3102.3
795.56232 923.0
810.91431 1964.1
811.41858 4857.8
811.92133 4975.3
812.42297 3223.2
812.92126 1759.2
819.42181 890.2
819.91632 2843.7
820.41803 1374.8
825.41644 20903.5
825.91803 26350.2
826.41943 13957.3
826.92096 6488.3
827.41962 2436.8
829.44501 4108.6
829.94830 5243.7
830.16528 662.3
830.44983 2949.7
830.95300 2141.4
834.94232 853.3
836.91003 885.8
837.91547 683.2
843.44366 16207.1
843.94550 17731.4
844.44568 11229.5
844.94720 5874.6
845.44916 2973.3
845.96503 673.9
856.45068 32420.0
857.45441 19462.0
858.06714 710.4
858.45514 6707.3
859.45825 1652.1
867.96295 3792.4
868.46130 5271.2
868.96332 3358.9
875.45026 764.7
881.95868 10894.9
882.45953 13970.8
882.96057 8170.8
883.46423 2672.4
883.96545 1784.0
884.43701 13141.7
884.93872 18561.3
885.43933 12137.3
885.94391 4959.1
886.44238 1460.4
892.95062 14158.4
893.45154 20820.6
893.95410 14657.8
894.45398 5707.3
894.95483 1592.8
901.45453 989.4
907.45605 769.6
911.92212 654.0
912.42609 923.2
929.45087 3175.9
930.45410 2067.8
931.45905 841.0
936.00299 887.4
940.48700 2703.5
940.98859 3880.7
941.48761 3715.8
941.99225 1130.3
947.98016 1314.8
948.48114 1397.0
948.97858 1417.8
949.49353 6066.2
949.99347 9325.0
950.49731 5463.8
950.99811 2188.4
961.97528 3715.5
962.47369 5336.3
962.97467 4106.5
963.48230 1556.9
963.97302 790.1
993.51190 3131.1
994.51758 2169.2
995.51642 907.9
1011.52515 753.5
1012.51031 935.4
1025.51807 741.8
1042.53662 3263.9
1043.53516 2678.7
1079.52185 630.8
1099.49426 727.9
1122.55151 992.5
1123.56531 1121.0
1198.14441 3478.8
1219.99597 636.6
1233.57520 790.5
1415.72595 1174.6
1416.72571 766.6
1574.95313 713.6
1588.65112 631.8
1621.69104 662.5
1716.21265 701.5
1750.42920 848.5
1874.51025 582.6
1878.74536 702.1
1879.05945 2089.5
1879.50305 9392.8
1879.68677 15260.9
1880.55176 1529.5
1880.90686 1308.8
1906.74036 1169.1
1907.06311 7187.6
1930.63013 1201.0
1966.44360 731.5
S	1654	1654	509.076019174
Z	5	2541.35099
133.68839 64038.0
141.18547 49857.6
142.84479 45330.8
188.20784 67274.0
188.25089 101489.2
188.27592 160696.3
188.28667 178418.9
188.29813 197342.3
188.31892 110452.0
191.52211 48073.4
198.88762 66063.0
199.17491 107303.0
199.24385 69839.0
199.25398 87444.3
199.26251 93281.9
199.27338 206215.0
199.35979 54081.1
226.87894 62306.0
239.47932 57207.1
246.21635 51777.6
271.82721 57138.5
288.20242 66965.1
301.99683 63244.3
308.89355 73363.8
342.09485 55711.0
342.14307 50909.1
376.17484 49038.4
387.26901 80834.5
388.17749 50163.3
388.55295 58753.3
410.83307 53368.5
416.00519 55809.4
421.61807 49922.1
467.23096 60917.9
473.23422 168208.5
473.56686 72286.4
491.87741 45671.2
523.50061 44931.7
532.52570 189086.4
540.27179 55553.6
540.77441 52997.9
549.74780 62619.6
571.04694 121136.8
571.29980 110672.3
571.54999 52731.4
575.95911 54333.1
616.55267 51628.6
630.39795 75326.6
676.66620 93027.6
719.01984 106317.8
719.69446 145630.3
720.02917 118876.3
720.37152 101681.8
731.11139 86815.1
762.55804 51479.3
784.00134 45428.3
795.55011 77811.5
935.82452 62300.4
1057.26855 58999.7
1134.22083 48549.4
1147.41833 51277.3
1198.17468 287754.3
1299.62708 62288.1
1332.15686 47167.6
1360.86243 48825.5
1525.40308 54786.8
1528.23413 54307.7
1601.97949 48721.1
1771.69385 54240.1
1859.99438 55168.0
1877.70105 76368.7
1878.81128 110290.2
1879.10693 127068.7
1879.60608 1488632.1
1880.12537 168205.4
1880.64478 95364.0
1881.47937 56697.5
1882.68994 56078.0
1882.79114 57105.8
1906.56470 45311.3
1906.93018 586044.4
1907.38342 67266.7
1930.56030 79468.4
S	1657	1657	509.069977174
Z	5	2541.32078
165.77435 835.0
172.94563 731.4
172.95230 640.7
175.11867 3056.9
188.20244 691.9
188.25972 2131.9
188.27924 2833.4
188.28781 2682.5
188.31247 1899.7
188.37202 689.7
196.02673 698.4
196.18510 655.9
199.00246 774.8
199.16946 1347.2
199.25066 1320.9
199.25682 838.1
199.26741 3356.9
199.28337 1017.1
199.36679 1394.6
219.94226 771.1
233.16463 6829.7
233.57907 924.2
234.16875 1597.1
235.90277 771.9
240.05392 719.9
261.15921 1506.8
267.99661 698.1
269.12735 787.5
269.67905 662.8
270.19138 862.8
272.13782 762.0
272.17117 17951.1
273.17517 3416.9
288.20248 17681.6
289.20605 2559.7
290.88766 806.8
306.15710 746.0
308.88843 894.2
311.10114 681.9
314.91547 689.1
319.17212 1606.8
322.68143 1865.5
341.14276 1109.2
355.35574 660.1
355.88745 919.7
369.03983 788.5
372.87448 698.7
379.22253 3454.1
379.72427 2452.4
380.25357 997.6
385.25497 8648.7
386.25751 1579.7
387.27057 18495.8
388.27408 4348.3
412.74564 731.5
419.72427 2093.6
420.22372 867.2
422.72623 779.7
428.72925 7677.9
429.23068 4315.2
441.82602 701.8
442.22244 1549.7
442.55734 1812.8
442.89093 1258.4
453.63638 1364.5
453.84006 1265.1
457.03625 875.0
457.24005 3470.9
457.43948 2375.1
457.63495 1085.4
466.24002 3944.1
467.89883 908.3
473.23541 1417.1
473.56705 2644.3
473.92999 4509.6
474.26358 2478.6
474.56900 1182.8
474.59866 1137.7
474.91467 691.7
483.70847 676.2
484.32297 9874.8
485.32587 2328.1
488.25558 1695.2
498.30377 1971.4
514.18433 789.2
516.44623 654.2
524.79907 2666.9
525.29852 1992.1
525.80200 1042.2
529.02344 942.3
532.52722 1248.9
532.55688 1903.6
533.02637 2810.8
533.27551 1121.5
533.52588 1162.7
535.01819 854.7
535.51752 1102.1
536.01477 815.7
539.51959 5555.9
539.77106 5570.4
540.02069 4983.3
540.27435 3027.4
540.52502 1836.5
540.74304 2037.2
541.24445 941.4
541.73828 938.5
543.77240 1114.0
544.27521 1336.0
546.61005 1152.8
546.94354 951.9
549.13831 866.7
549.74457 10004.4
550.24622 9071.4
550.74707 4851.8
551.25970 847.3
552.77258 5922.1
553.27283 4499.7
553.77618 1863.7
557.28595 1056.0
557.54254 1551.4
557.81000 5656.6
558.30804 3983.2
558.80774 1969.4
561.29681 1734.5
561.54633 3014.0
561.77728 6442.8
562.04437 1900.5
562.27478 3143.3
562.54352 3005.6
562.63025 4614.3
562.77966 1843.2
562.96649 4214.9
563.30341 2091.1
564.28363 1699.5
564.54095 1766.9
564.78821 733.7
564.91754 723.6
566.54553 6096.6
566.79602 8967.2
567.04651 7625.6
567.29749 4984.0
567.54688 1896.1
568.28845 1132.3
568.54724 1070.4
569.04321 860.0
571.04755 20766.1
571.29852 30643.2
571.54913 26590.9
571.79919 19429.7
572.05017 7122.6
572.30170 1641.8
574.63715 818.1
579.96057 1163.3
580.62677 1502.6
580.81512 913.7
589.29340 2314.7
589.62659 2358.8
589.96045 2560.6
595.29095 744.7
595.31995 710.2
595.63776 1171.8
595.79449 1077.6
595.96973 1359.6
599.57013 1710.0
599.82269 1297.1
600.30243 880.2
606.28638 3596.8
606.78906 4992.5
607.28668 2929.7
607.78540 946.3
608.26129 804.9
617.29559 1820.0
618.29578 1019.9
627.32428 1522.0
630.67096 757.1
632.31061 1500.0
632.64178 2129.4
632.96619 1893.5
633.34302 1324.1
633.67145 1408.8
644.35309 4303.9
645.35547 1952.6
668.90118 1133.4
669.90277 1353.1
670.66644 870.2
671.00641 1436.5
671.33704 747.4
676.01080 15782.6
676.34442 22200.9
676.67908 17443.7
677.01282 8045.0
677.34680 3229.3
677.67816 1704.3
680.67419 835.5
681.00116 2597.6
681.33484 1137.2
681.66602 1275.8
681.99939 1080.6
686.67291 2434.9
687.00824 4421.8
687.34259 2954.6
687.67676 3007.8
688.00818 925.5
689.68817 1189.7
703.36682 829.0
708.02087 1048.7
710.33765 811.0
713.36157 2215.0
713.69061 5458.7
714.02869 7466.2
714.36108 4177.4
714.69330 2775.2
715.02832 1660.6
718.27032 888.7
719.02454 27992.6
719.35907 42267.6
719.69379 51390.4
720.02850 41333.2
720.36328 31715.7
720.69714 12366.7
721.03290 4133.8
721.36700 1200.7
752.04877 1138.3
752.38159 3647.1
752.71613 2381.9
753.05713 938.3
757.43555 2727.2
758.43805 1874.6
795.53864 1208.3
817.49817 731.9
821.39258 1307.4
844.97754 734.6
856.45087 2643.3
857.45959 997.6
896.55310 878.8
924.83246 666.0
1041.49683 1095.4
1057.22290 1463.1
1198.24390 4060.6
1266.06970 703.2
1525.36426 902.9
1815.69482 830.9
1878.48523 1307.7
1879.00940 2185.3
1879.50623 24489.0
1879.80920 2150.8
1879.98743 2047.7
1880.49194 812.7
1906.75464 1188.1
1907.09619 8880.1
1918.66956 776.1
1930.53064 887.8
1934.08484 803.0
S	1658	1658	636.08550985
Z	4	2541.32021
188.24057 684.3
188.25024 613.2
188.27071 943.0
188.28607 823.6
188.30046 672.7
188.31403 820.1
188.32976 608.8
198.89064 1331.4
199.18474 1371.1
199.19563 614.8
199.25656 1490.5
199.26581 867.6
199.27246 1093.0
199.28397 2642.7
199.38142 906.5
199.41461 595.7
227.86287 685.2
232.11165 760.2
234.23698 587.4
238.09399 682.2
251.69821 619.3
252.93695 547.2
255.14560 988.2
255.28276 837.8
257.09460 892.9
271.64719 696.4
272.17108 5361.7
274.12027 854.2
305.18079 666.6
322.67990 3319.7
346.41721 751.7
379.22177 6036.7
379.72296 1633.6
385.25507 11901.3
386.25876 1331.3
387.27213 1343.2
389.18518 644.1
392.21298 2277.2
399.91760 737.4
415.64642 652.7
421.16782 603.4
428.72870 29536.1
429.23026 12235.3
429.73175 3389.7
433.06985 586.1
443.25345 893.6
482.64346 776.6
484.32263 38004.7
485.32599 9577.4
486.32968 863.0
488.25174 1558.1
497.25778 2345.8
507.77151 1178.2
508.24234 1130.3
508.27380 1094.7
516.31293 3095.4
517.31238 1219.5
521.76996 1619.7
522.27045 1777.4
526.27466 1470.8
532.56458 1913.1
547.34985 525.6
547.63715 742.8
552.77521 3578.5
553.27789 1535.6
553.63635 1734.4
561.77899 2733.9
562.27740 1277.3
562.62878 2308.9
562.96710 1322.3
563.29822 869.1
569.79816 716.8
571.05273 802.0
589.95880 1049.4
595.31915 1980.7
595.56927 2881.7
595.63599 3904.0
595.81970 1739.6
595.96930 4322.7
596.30969 904.3
597.82367 915.8
615.30371 700.1
617.29779 1660.7
617.79175 974.1
618.32440 4031.0
618.65741 913.5
618.98840 891.9
619.32776 1255.9
621.64990 1232.6
627.42651 545.7
632.43469 543.7
644.35626 1400.5
645.35760 1171.4
676.64380 872.2
680.99817 1618.8
681.33234 1367.5
686.67395 6552.5
687.00720 4158.4
687.34082 2394.6
687.67352 2536.7
702.37726 4818.3
703.38391 878.4
715.37054 929.5
719.69525 4983.7
720.02991 5163.7
720.36554 2529.0
731.10126 718.6
747.36505 1030.5
751.88208 747.6
754.36133 855.5
755.24481 674.3
757.43616 21654.5
757.73120 2028.1
758.05756 1050.1
758.43958 8819.1
759.40002 8528.8
760.40210 3328.9
761.05835 1136.8
761.40015 1690.4
761.85913 694.3
762.38086 620.5
762.88171 957.8
784.90668 852.8
788.90948 2852.7
789.41083 1705.6
793.42987 1359.6
793.75653 1769.4
794.09137 2156.6
794.41107 982.2
796.75171 787.6
797.07605 1108.6
808.92743 825.4
810.91022 1208.6
811.41943 3279.0
811.91846 1977.8
812.42102 1321.5
825.41565 16508.9
825.91730 14669.1
826.41852 5401.6
826.91699 2014.3
829.44611 3640.2
829.94684 3162.2
830.44977 1915.6
843.44281 12106.7
843.94373 9050.9
844.44678 5606.2
844.94830 2009.2
845.45892 1067.8
856.45001 22475.9
857.45264 8889.3
858.45313 2270.1
859.45721 924.0
867.95953 3308.2
868.46326 2929.2
868.96808 1037.6
881.95801 9065.1
882.45856 7589.8
882.95978 4205.6
883.46295 1429.6
884.43634 12364.2
884.93726 11465.7
885.43695 4569.9
885.94067 2355.2
892.94922 15298.5
893.45081 15426.4
893.95197 7901.3
894.45313 2270.7
929.44873 2260.5
930.45972 1180.5
940.48248 2644.6
940.98993 2202.7
941.48334 1306.8
942.49121 761.4
947.97192 1080.8
948.47845 977.5
948.97528 999.0
949.49213 5964.5
949.99316 3645.4
950.49951 1276.3
950.99750 1287.4
961.97382 3559.8
962.47333 3087.3
962.97363 1617.0
993.50836 1888.7
994.51617 1210.0
997.51074 730.0
1018.58392 691.0
1042.52881 2911.7
1043.53125 820.4
1122.55469 1020.1
1198.26489 3403.8
1233.60571 709.1
1348.50647 630.6
1414.70410 747.9
1415.71899 1142.5
1667.15271 975.0
1879.15747 1660.8
1879.55139 20090.7
1879.93298 1012.8
1880.12524 858.1
1880.45508 1034.0
1907.07043 7501.8
1909.45203 747.1
1930.53943 1285.5
S	1662	1662	509.069519174
Z	5	2541.31849
137.47337 571.4
148.05644 639.5
164.65225 522.0
165.77637 672.1
171.88548 690.7
179.63756 567.4
188.24184 785.9
188.27287 1863.8
188.28209 2035.0
188.28932 2113.7
188.29939 2033.8
188.31149 1670.4
188.34293 510.4
194.87611 573.9
198.89120 745.7
199.16811 1296.3
199.26639 3061.5
199.33826 650.6
199.36464 1120.8
201.12312 1715.9
209.47623 540.8
233.16365 1068.2
251.35846 524.5
271.79901 634.7
272.17120 6231.9
288.20242 7752.7
294.33023 522.7
319.17178 1219.6
334.05057 592.6
343.03546 636.3
377.74966 870.9
379.22125 1817.0
385.25586 2633.7
387.27075 5515.0
388.27350 808.0
396.25989 620.5
399.75055 528.3
409.24326 812.6
410.52420 596.5
419.72293 1095.3
427.57297 938.3
428.72885 1950.1
429.22696 814.6
442.22220 1667.1
444.14520 578.4
455.78711 840.6
466.23840 1921.2
467.22922 17181.5
467.56378 19935.8
467.89777 4159.4
473.23279 49763.5
473.56708 41086.0
473.90140 11612.7
474.23682 2480.8
484.32104 2736.8
488.75278 658.8
532.54510 1784.7
533.02405 1787.1
539.51904 3216.4
539.77161 2023.9
540.02045 2865.2
540.73877 1053.7
544.76599 1142.5
549.04285 583.4
549.74402 7817.7
550.24634 2257.7
552.76703 785.2
557.53961 1221.0
561.29584 1311.2
561.35529 892.6
561.54810 1417.2
562.54523 1274.5
566.54358 2091.0
566.79523 1803.5
567.04309 1303.3
568.83673 555.2
571.04755 5085.7
571.29993 6331.2
571.54907 4127.3
571.78180 511.1
571.80371 631.3
573.53693 1511.5
573.79095 1328.5
582.29340 3286.8
582.79315 2633.7
589.29413 721.6
589.62915 670.0
589.96313 1190.4
594.81915 828.5
595.29053 17753.3
595.54498 1718.3
595.79169 14159.4
596.29327 3409.2
606.28741 3156.3
606.78546 1148.9
611.38348 706.3
611.89178 1179.2
626.39673 3887.3
627.32202 695.6
627.39813 1355.4
627.82538 3471.4
628.32922 2447.1
628.82471 921.6
633.33374 1025.9
644.34943 1404.2
648.29767 608.9
660.39856 982.5
668.49634 707.7
668.89905 9859.4
669.39966 7216.5
669.90277 2541.5
670.40222 1180.4
676.00952 6359.4
676.34369 4806.4
676.67749 3793.7
686.67194 1746.8
687.00964 2848.4
704.41980 1033.6
704.91943 738.1
709.34680 2778.2
709.84460 2478.0
710.34241 678.2
713.69141 2248.1
714.02643 2575.5
714.36359 1251.1
715.01263 736.2
719.02460 17464.2
719.35834 17053.7
719.69427 16236.3
720.02917 12546.5
720.36438 5371.0
720.69855 1324.1
731.16998 626.2
739.36407 627.1
752.71338 1029.5
757.44403 759.0
795.56262 782.9
856.45593 729.4
993.16760 547.0
1198.21570 3566.6
1256.22644 652.9
1753.81299 654.5
1777.47974 1110.5
1780.92419 637.7
1858.50366 609.9
1876.08496 584.7
1878.02844 1054.6
1878.38513 964.6
1879.51501 19089.3
1880.25989 1106.2
1880.82422 902.4
1907.04419 7697.2
1930.76465 1011.4
S	1758	1758	726.123595174
Z	5	3626.58887
198.89259 932.4
199.13486 773.4
199.17270 710.5
199.19661 640.9
199.23044 988.5
199.24748 937.3
199.25905 1091.7
199.26953 2422.5
199.29337 1276.8
199.39218 559.7
202.05807 556.9
213.09346 569.5
217.69522 578.5
234.82657 583.5
246.15573 3179.7
256.23288 611.2
265.96368 530.6
270.06317 545.2
276.19690 594.3
288.06583 628.6
288.34668 572.7
295.64090 662.3
303.77573 672.7
352.66150 1493.7
370.68686 636.4
397.26025 756.5
421.70786 776.0
460.18790 676.9
479.22473 974.1
480.56537 738.7
515.35950 671.2
528.27795 558.5
532.58655 1633.4
534.73627 1344.1
538.27423 829.9
543.74274 4191.5
544.24316 1692.7
549.26001 838.3
574.29382 1736.3
575.31653 542.3
595.29340 779.9
595.78711 650.3
607.41779 1007.9
617.27777 4475.3
617.77802 2290.2
622.68134 621.2
628.48206 801.9
630.28131 1101.9
632.23169 680.7
636.33356 12426.4
637.33636 3691.2
638.80988 626.9
641.80615 1143.1
642.30414 835.6
646.29175 637.2
661.34979 599.3
662.29889 926.8
665.21497 664.7
665.78809 1080.5
666.28021 675.2
667.97253 974.2
668.30786 2649.6
668.81769 723.9
674.29797 10885.2
674.79852 5450.0
675.29999 2354.1
676.65094 747.7
677.32562 2875.4
677.82562 2273.2
678.31793 1255.7
687.37518 1997.1
694.31360 1295.6
700.99402 661.8
704.31915 13449.1
705.32172 4112.4
705.66309 857.7
706.32300 861.9
711.65662 932.3
711.99371 675.1
731.14807 780.6
749.32068 1389.4
754.66461 801.2
755.33917 844.2
760.67017 780.2
789.34448 1617.7
793.01703 1234.3
793.35065 836.7
795.56378 1030.1
798.68860 720.2
799.01849 1339.9
799.86707 823.9
811.86548 945.8
815.43475 1786.0
816.35406 852.7
824.86139 961.8
825.87610 1175.0
830.37970 4022.7
830.88104 3782.7
831.37878 1185.2
837.35724 768.0
837.85474 1024.8
838.11792 760.6
840.87048 1269.1
841.33044 1694.3
841.70294 1001.1
842.10278 741.3
844.87366 1571.9
845.12396 1826.4
845.36426 1248.4
847.71368 1407.6
848.04327 2599.5
848.37567 1861.4
849.18127 732.3
862.63525 907.5
879.03961 710.3
887.89203 844.2
896.91962 1012.1
897.43835 812.2
918.90753 1096.1
923.06305 785.6
923.73187 858.2
934.73761 656.7
939.39130 945.4
944.91296 3579.8
945.41638 2454.2
945.93201 868.5
985.95251 929.2
1001.45386 2114.0
1025.46228 1612.4
1025.96570 1595.4
1026.46594 1130.1
1041.41040 737.0
1057.25000 744.3
1066.98376 699.5
1067.47510 828.0
1075.98511 1525.6
1076.48499 1891.7
1094.46204 2830.9
1094.95740 940.1
1102.43860 1495.3
1124.61340 722.8
1140.51099 2360.4
1141.00378 1401.6
1197.53613 818.6
1198.03540 1002.2
1198.31262 3302.6
1295.44128 748.2
1467.71155 858.6
1560.34912 650.8
1804.94519 557.2
1870.32227 779.8
1879.28650 1781.8
1879.56116 19742.5
1880.66296 975.5
1881.13416 671.4
1881.83899 719.7
1906.49402 657.5
1907.04602 7494.7
